IRON OXIDE PIGMENTS STATISTICS1
U.S. GEOLOGICAL SURVEY
[All values in metric tons (t) gross weight unless otherwise noted]
Last modification: January 19, 2017
Year	Production	Imports	Exports	Apparent consumption	Unit value ($/t)	Unit value (98$/t)	World production
1900	38700	4980	NA	44000	17	330	NA
1901	30600	5100	NA	36000	21	410	NA
1902	32900	6100	NA	39000	23	430	NA
1903	34700	6310	NA	41000	16	290	NA
1904	40100	5900	NA	46000	14	250	NA
1905	37300	6790	NA	44000	14	250	NA
1906	40300	7410	NA	48000	14	250	NA
1907	40300	7980	NA	48000	15	260	NA
1908	41100	6090	NA	47000	13	230	NA
1909	31300	8720	NA	40000	18	330	NA
1910	38200	8660	NA	47000	16	280	NA
1911	34800	7830	NA	43000	16	280	NA
1912	40300	10900	NA	51000	15	250	NA
1913	44000	11400	NA	55000	13	210	NA
1914	41800	17100	NA	59000	15	240	NA
1915	NA	NA	NA	56000	18	290	NA
1916	NA	NA	NA	58000	20	300	NA
1917	NA	NA	NA	59000	23	290	NA
1918	NA	NA	NA	60000	25	270	NA
1919	NA	NA	NA	61000	28	260	NA
1920	NA	NA	NA	63000	31	250	NA
1921	NA	NA	NA	64000	33	300	NA
1922	NA	NA	NA	65000	36	350	NA
1923	NA	NA	NA	66000	38	360	NA
1924	NA	NA	NA	68000	41	390	NA
1925	NA	NA	NA	69000	44	410	NA
1926	NA	NA	NA	70000	46	420	NA
1927	NA	NA	NA	71000	49	460	NA
1928	NA	NA	NA	73000	51	490	NA
1929	NA	NA	NA	74000	54	510	NA
1930	NA	NA	NA	75000	56	550	NA
1931	NA	NA	NA	76000	59	630	NA
1932	NA	NA	NA	78000	62	740	NA
1933	NA	NA	NA	79000	64	800	NA
1934	NA	NA	NA	80000	67	820	NA
1935	NA	NA	NA	81000	69	820	NA
1936	NA	NA	NA	83000	72	840	NA
1937	NA	NA	NA	84000	75	850	NA
1938	NA	NA	NA	85000	77	890	NA
1939	NA	18500	4950	86000	80	940	NA
1940	NA	14000	4720	88000	82	950	NA
1941	NA	8100	4480	89000	85	940	NA
1942	88300	3990	3290	89000	88	876	NA
1943	90900	1320	3960	88300	88	824	NA
1944	88000	3050	4680	86400	90	834	NA
1945	91600	5500	4730	92400	94	849	NA
1946	104000	9380	5520	108000	93	780	NA
1947	105000	7070	6910	105000	105	767	NA
1948	101000	4470	6290	99200	107	724	NA
1949	94600	3750	5850	92500	110	753	NA
1950	117000	8320	5050	121000	122	825	NA
1951	115000	12700	4220	123000	126	790	NA
1952	95500	7980	3510	99900	135	830	NA
1953	98300	9980	3810	105000	139	849	NA
1954	88900	9710	3270	95300	150	909	NA
1955	105000	12700	4260	113000	159	967	NA
1956	103000	11900	4630	111000	159	953	NA
1957	95200	11900	3360	104000	166	963	NA
1958	89300	10600	3540	96300	170	959	NA
1959	107000	13400	3900	116000	171	958	NA
1960	96200	13200	3900	105000	177	975	NA
1961	96600	9530	2900	103000	183	998	NA
1962	103000	11900	3450	111000	184	993	NA
1963	108000	12400	3810	116000	188	1000	NA
1964	108000	14800	4630	119000	201	1060	NA
1965	116000	16200	4260	128000	195	1010	NA
1966	119000	22300	4350	137000	199	1000	NA
1967	116000	21200	2810	134000	219	1070	NA
1968	120000	27200	2720	145000	238	1110	NA
1969	130000	29900	3630	156000	232	1030	NA
1970	113000	29700	4170	138000	238	1000	NA
1971	116000	33100	3610	146000	249	1000	NA
1972	138000	42900	3870	177000	255	994	NA
1973	135000	46400	8970	172000	306	1120	NA
1974	134000	49200	8770	174000	421	1390	NA
1975	95100	25400	7970	113000	460	1390	NA
1976	123000	45500	5270	163000	480	1380	286000
1977	128000	53300	5890	175000	522	1400	295000
1978	138000	64000	6410	196000	526	1320	292000
1979	142000	50200	4400	187000	618	1390	322000
1980	114000	35800	4580	145000	682	1350	254000
1981	116000	36000	4510	148000	753	1350	234000
1982	95200	23500	8220	110000	826	1400	225000
1983	112000	27900	11500	128000	914	1500	229000
1984	118000	34700	29400	123000	947	1490	258000
1985	115000	36100	27000	124000	961	1460	251000
1986	116000	33400	26200	124000	987	1470	229000
1987	124000	38400	20200	143000	966	1390	281000
1988	127000	38900	22000	144000	975	1340	281000
1989	128000	36700	9970	154000	1000	1310	321000
1990	125000	34100	9540	150000	1110	1380	258000
1991	117000	34700	20600	131000	1140	1360	243000
1992	121000	45100	21100	145000	1120	1300	244000
1993	126000	43600	22400	147000	1160	1310	209000
1994	139000	51400	21300	169000	1070	1180	239000
1995	151000	59300	17500	193000	1130	1210	337000
1996	163000	59600	16000	207000	1150	1190	403000
1997	176000	66700	16600	226000	1060	1080	466000
1998	180000	63800	14600	229000	1050	1050	533000
1999	183000	80800	13800	250000	980	959	559000
2000	154000	91300	9640	236000	892	844	511000
2001	135000	89900	9100	216000	920	847	598000
2002	115000	132000	6270	241000	864	783	635000
2003	90000	140000	4500	226000	807	715	810000
2004	84600	170000	3120	251000	759	655	1040000
2005	90000	193000	2220	281000	825	689	1070000
2006	70300	199000	3100	266000	847	685	998000
2007	88100	178000	5410	261000	1040	818	1050000
2008	83300	155000	4740	234000	1180	893	1450000
2009	50800	106000	5640	151000	1280	972	1430000
2010	54700	151000	8750	197000	1200	897	1530000
2011	48000	158000	8660	197000	1270	920	1500000
2012	48400	151000	8950	190000	1300	923	1900000
2013	47200	165000	8170	204000	1250	875	1750000
2014	45300	175000	8790	212000	1270	875	2920000
2015	53500	176000	8930	221000	1250	860	2670000
2016	48500	179000	15800	212000	1180	801	2720000
2017	47300	179000	13500	213000	1190	791	2710000
2018	48200	179000	11100	216000	1240	808	2510000
NA Not available.
1Compiled by T.D. Kelly, M.J. Potter, A.O. Tanner, and A.S. Brioche.
Data are calculated, estimated, or reported.  See notes for more information.
